onset	duration	block	trial	task	stim cat	repetition	reaction_time	response
12	1	1	1	2	1	2	0.905	1
15	1	1	2	2	1	1	0.726	1
18	1	1	3	2	1	2	1.17	3
21	1	1	4	2	1	2	0.957	3
24	1	1	5	2	2	2	0.763	3
27	1	1	6	2	1	1	0.914	1
30	1	1	7	2	1	1	0.648	1
33	1	1	8	2	2	1	1.236	3
36	1	1	9	2	2	2	0.922	4
39	1	1	10	2	2	1	1.348	4
42	1	1	11	2	2	1	1.209	3
45	1	1	12	2	2	2	1.282	2
63	1	2	1	1	1	2	1.301	3
66	1	2	2	1	1	2	0.934	2
69	1	2	3	1	2	2	1.043	2
72	1	2	4	1	1	1	1.02	2
75	1	2	5	1	2	2	1.527	2
78	1	2	6	1	2	1	0.91	2
81	1	2	7	1	1	1	0.832	2
84	1	2	8	1	2	2	1.029	1
87	1	2	9	1	1	1	1.239	2
90	1	2	10	1	2	1	0.854	1
93	1	2	11	1	1	2	0.997	3
96	1	2	12	1	2	1	0.933	1
114	1	3	1	2	2	2	1.823	2
117	1	3	2	2	2	1	0.935	3
120	1	3	3	2	2	1	1.094	2
123	1	3	4	2	1	2	0.766	1
126	1	3	5	2	1	1	1.232	2
129	1	3	6	2	2	2	0.841	3
132	1	3	7	2	1	1	1.019	1
135	1	3	8	2	1	2	0.591	1
138	1	3	9	2	1	2	1.569	2
141	1	3	10	2	2	1	0.802	3
144	1	3	11	2	2	2	0.753	2
147	1	3	12	2	1	1	0.98	1
165	1	4	1	1	1	1	1.342	2
168	1	4	2	1	2	1	1.022	1
171	1	4	3	1	1	1	1.046	2
174	1	4	4	1	1	2	1.128	3
177	1	4	5	1	2	1	0.855	1
180	1	4	6	1	2	2	0.976	2
183	1	4	7	1	1	2	0.93	2
186	1	4	8	1	2	2	0.734	1
189	1	4	9	1	1	1	1.284	2
192	1	4	10	1	1	2	1.277	3
195	1	4	11	1	2	2	0.811	2
198	1	4	12	1	2	1	0.941	2